File: V44_Reflectrometry/data/omega_2theta.UXD
; C:\DIFFDAT1\Praktikum\Fisher_Margaryan\omega_2theta.raw(Diffrac Plus V1.01 file) converted by XCH V1.0
_FILEVERSION=2
_SITE='Deutschland'
_USER='Administrator'
_GONIOMETER_CODE=4885
; D8 Theta/Theta; Special
_SAMPLE_CHANGER_CODE=0
_ATTACHMENTS_CODE=0
_GONIOMETER_RADIUS=350
_FIXED_DIVSLIT=0.600000
_FIXED_SAMPLESLIT=0.000000
_FIXED_DETSLIT=11.66
_MONOCHROMATOR=0
; None
_THIN_FILM='N'
_BETA_FILTER='Y'
_FIXED_ANTISLIT=8.340000
_ANALYZER_CODE=0
; None
_DATEMEASURED='15-Dec-2025 11:58:14'
_WL_UNIT='A'
_WL1=1.540600
_WL2=1.544390
_WL3=1.392220
_WLRATIO=0.500000
_ANODE='Cu'
; (Data for Range number 1)
_DRIVE='THETA'
_STEPTIME=5.000660
_STEPSIZE=0.005000
_STEPMODE='C'
_START=0.000000
_THETA=0.000000
_2THETA=0.000000
_KHI=0.000000
_PHI=92.46
_X=-1.000000
_Y=-2.500000
_Z=0.256000
_DIVERGENCE=0.000000
_ANTISCATTER=0.000000
_DETECTOR=5
_DETECTORSLIT='unkn'
_AUX1=0.000000
_AUX2=0.000000
_AUX3=0.000000
_TIMESTARTED=2.000000
_TEMP_RATE=-1.000000
_TEMP_DELAY=-1.000000
_KV=30
_MA=30
_RANGE_WL=1.540600
_3DPLANE=0
_GONIOMETER=-0.002500
_PSDCHANNEL0=0
_2THETACOUNTS
   0.0000    449978
   0.0050    602080
   0.0100    718949
   0.0150    755803
   0.0200    669948
   0.0250    502732
   0.0300    351494
   0.0350    255116
   0.0400    204913
   0.0450    173769
   0.0500    162368
   0.0550    157640
   0.0600    156679
   0.0650    158228
   0.0700    156176
   0.0750    161852
   0.0800    167985
   0.0850    178099
   0.0900    184949
   0.0950    193040
   0.1000    200045
   0.1050    206098
   0.1100    216003
   0.1150    224641
   0.1200    231492
   0.1250    244498
   0.1300    253493
   0.1350    260931
   0.1400    271542
   0.1450    279792
   0.1500    289722
   0.1550    298505
   0.1600    305555
   0.1650    311595
   0.1700    308509
   0.1750    294230
   0.1800    295218
   0.1850    313788
   0.1900    318185
   0.1950    312652
   0.2000    320042
   0.2050    339648
   0.2100    346726
   0.2150    340476
   0.2200    321229
   0.2250    303181
   0.2300    282449
   0.2350    239832
   0.2400    180535
   0.2450    120171
   0.2500     77150
   0.2550     49627
   0.2600     38800
   0.2650     37441
   0.2700     38458
   0.2750     37771
   0.2800     33052
   0.2850     25949
   0.2900     18686
   0.2950     13040
   0.3000     10455
   0.3050     10786
   0.3100     12231
   0.3150     13322
   0.3200     13753
   0.3250     12316
   0.3300     10155
   0.3350      7857
   0.3400      5740
   0.3450      4607
   0.3500      4767
   0.3550      5352
   0.3600      6028
   0.3650      6646
   0.3700      6395
   0.3750      5542
   0.3800      4320
   0.3850      3480
   0.3900      2771
   0.3950      2512
   0.4000      2691
   0.4050      3146
   0.4100      3460
   0.4150      3585
   0.4200      3413
   0.4250      3055
   0.4300      2508
   0.4350      2027
   0.4400      1677
   0.4450      1531
   0.4500      1730
   0.4550      1881
   0.4600      2072
   0.4650      2229
   0.4700      2103
   0.4750      1924
   0.4800      1668
   0.4850      1314
   0.4900      1192
   0.4950      1049
   0.5000      1128
   0.5050      1265
   0.5100      1437
   0.5150      1559
   0.5200      1453
   0.5250      1315
   0.5300      1197
   0.5350      1053
   0.5400       933
   0.5450       889
   0.5500       859
   0.5550       982
   0.5600      1087
   0.5650      1112
   0.5700      1197
   0.5750      1141
   0.5800      1058
   0.5850       920
   0.5900       852
   0.5950       848
   0.6000       867
   0.6050       925
   0.6100       980
   0.6150      1062
   0.6200      1117
   0.6250      1031
   0.6300      1062
   0.6350      1016
   0.6400      1216
   0.6450      1343
   0.6500      1538
   0.6550      1902
   0.6600      2352
   0.6650      2707
   0.6700      3184
   0.6750      3599
   0.6800      3920
   0.6850      4322
   0.6900      4660
   0.6950      5035
   0.7000      5397
   0.7050      5753
   0.7100      5922
   0.7150      5771
   0.7200      5635
   0.7250      5371
   0.7300      5064
   0.7350      4684
   0.7400      4347
   0.7450      3959
   0.7500      3531
   0.7550      3177
   0.7600      2742
   0.7650      2390
   0.7700      2043
   0.7750      1710
   0.7800      1345
   0.7850       939
   0.7900       622
   0.7950       311
   0.8000       170
   0.8050        90
   0.8100        91
   0.8150        78
   0.8200        99
   0.8250       128
   0.8300       122
   0.8350       131
   0.8400       108
   0.8450        81
   0.8500        61
   0.8550        59
   0.8600        66
   0.8650        71
   0.8700        70
   0.8750        77
   0.8800        95
   0.8850        96
   0.8900        85
   0.8950        66
   0.9000        65
   0.9050        59
   0.9100        43
   0.9150        51
   0.9200        44
   0.9250        53
   0.9300        63
   0.9350        70
   0.9400        61
   0.9450        52
   0.9500        51
   0.9550        38
   0.9600        30
   0.9650        41
   0.9700        32
   0.9750        40
   0.9800        45
   0.9850        53
   0.9900        48
   0.9950        50
   1.0000        37
   1.0050        32
   1.0100        27
   1.0150        31
   1.0200        34
   1.0250        25
   1.0300        40
   1.0350        35
   1.0400        37
   1.0450        36
   1.0500        34
   1.0550        26
   1.0600        29
   1.0650        22
   1.0700        31
   1.0750        24
   1.0800        28
   1.0850        20
   1.0900        31
   1.0950        27
   1.1000        25
   1.1050        28
   1.1100        23
   1.1150        20
   1.1200        24
   1.1250        23
   1.1300        19
   1.1350        11
   1.1400        22
   1.1450        19
   1.1500        26
   1.1550        21
   1.1600        20
   1.1650        18
   1.1700        18
   1.1750        20
   1.1800        14
   1.1850        11
   1.1900        16
   1.1950        20
   1.2000        15
   1.2050        16
   1.2100        23
   1.2150        18
   1.2200        16
   1.2250        13
   1.2300        10
   1.2350        11
   1.2400        14
   1.2450        19
   1.2500        15
   1.2550        16
   1.2600        10
   1.2650        20
   1.2700        12
   1.2750        11
   1.2800        11
   1.2850         7
   1.2900        11
   1.2950        14
   1.3000        11
   1.3050        14
   1.3100        13
   1.3150        13
   1.3200        17
   1.3250         7
   1.3300         9
   1.3350        10
   1.3400         4
   1.3450        10
   1.3500        13
   1.3550        12
   1.3600        12
   1.3650         9
   1.3700         9
   1.3750         8
   1.3800         9
   1.3850         9
   1.3900         5
   1.3950        16
   1.4000        11
   1.4050         9
   1.4100         4
   1.4150         6
   1.4200         5
   1.4250        11
   1.4300         5
   1.4350         3
   1.4400         5
   1.4450         6
   1.4500         7
   1.4550         3
   1.4600         7
   1.4650         7
   1.4700         5
   1.4750         4
   1.4800         8
   1.4850         9
   1.4900         7
   1.4950         4
   1.5000         6