File: V44_Reflectrometry/data/omega_2theta_background.UXD
; C:\DIFFDAT1\Praktikum\Fisher_Margaryan\omega_2theta_background.raw(Diffrac Plus V1.01 file) converted by XCH V1.0
_FILEVERSION=2
_SITE='Deutschland'
_USER='Administrator'
_GONIOMETER_CODE=4885
; D8 Theta/Theta; Special
_SAMPLE_CHANGER_CODE=0
_ATTACHMENTS_CODE=0
_GONIOMETER_RADIUS=350
_FIXED_DIVSLIT=0.600000
_FIXED_SAMPLESLIT=0.000000
_FIXED_DETSLIT=11.66
_MONOCHROMATOR=0
; None
_THIN_FILM='N'
_BETA_FILTER='Y'
_FIXED_ANTISLIT=8.340000
_ANALYZER_CODE=0
; None
_DATEMEASURED='15-Dec-2025 12:25:11'
_WL_UNIT='A'
_WL1=1.540600
_WL2=1.544390
_WL3=1.392220
_WLRATIO=0.500000
_ANODE='Cu'
; (Data for Range number 1)
_DRIVE='THETA'
_STEPTIME=5.000660
_STEPSIZE=0.005000
_STEPMODE='C'
_START=0.000000
_THETA=0.000000
_2THETA=0.100000
_KHI=0.000000
_PHI=92.46
_X=-1.000000
_Y=-2.500000
_Z=0.256000
_DIVERGENCE=0.000000
_ANTISCATTER=0.000000
_DETECTOR=5
_DETECTORSLIT='unkn'
_AUX1=0.000000
_AUX2=0.000000
_AUX3=0.000000
_TIMESTARTED=2.000000
_TEMP_RATE=-1.000000
_TEMP_DELAY=-1.000000
_KV=30
_MA=30
_RANGE_WL=1.540600
_3DPLANE=0
_GONIOMETER=0.097500
_PSDCHANNEL0=0
_2THETACOUNTS
   0.0000     83665
   0.0050     72289
   0.0100     64080
   0.0150     54873
   0.0200     44084
   0.0250     40999
   0.0300     38842
   0.0350     38479
   0.0400     35851
   0.0450     33391
   0.0500     32033
   0.0550     29742
   0.0600     31540
   0.0650     32529
   0.0700     34104
   0.0750     39541
   0.0800     38820
   0.0850     38056
   0.0900     39679
   0.0950     39635
   0.1000     37860
   0.1050     33276
   0.1100     30507
   0.1150     30795
   0.1200     30745
   0.1250     28013
   0.1300     24117
   0.1350     20438
   0.1400     17318
   0.1450     15916
   0.1500     14870
   0.1550     13467
   0.1600     12421
   0.1650     11374
   0.1700     10160
   0.1750      9533
   0.1800      8712
   0.1850      8020
   0.1900      7057
   0.1950      6324
   0.2000      5428
   0.2050      4509
   0.2100      3698
   0.2150      3076
   0.2200      2653
   0.2250      2150
   0.2300      1889
   0.2350      1459
   0.2400      1315
   0.2450      1075
   0.2500       901
   0.2550       781
   0.2600       594
   0.2650       563
   0.2700       537
   0.2750       468
   0.2800       438
   0.2850       437
   0.2900       431
   0.2950       418
   0.3000       411
   0.3050       371
   0.3100       341
   0.3150       360
   0.3200       347
   0.3250       309
   0.3300       312
   0.3350       343
   0.3400       353
   0.3450       315
   0.3500       294
   0.3550       302
   0.3600       294
   0.3650       288
   0.3700       311
   0.3750       267
   0.3800       277
   0.3850       271
   0.3900       296
   0.3950       272
   0.4000       313
   0.4050       314
   0.4100       281
   0.4150       267
   0.4200       294
   0.4250       266
   0.4300       263
   0.4350       298
   0.4400       348
   0.4450       307
   0.4500       331
   0.4550       285
   0.4600       311
   0.4650       310
   0.4700       342
   0.4750       344
   0.4800       304
   0.4850       385
   0.4900       379
   0.4950       382
   0.5000       416
   0.5050       390
   0.5100       391
   0.5150       402
   0.5200       427
   0.5250       459
   0.5300       441
   0.5350       422
   0.5400       449
   0.5450       483
   0.5500       544
   0.5550       550
   0.5600       570
   0.5650       598
   0.5700       625
   0.5750       638
   0.5800       684
   0.5850       795
   0.5900       987
   0.5950      1164
   0.6000      1369
   0.6050      1709
   0.6100      2119
   0.6150      2451
   0.6200      2858
   0.6250      3397
   0.6300      3660
   0.6350      4145
   0.6400      4706
   0.6450      5066
   0.6500      5215
   0.6550      5645
   0.6600      5633
   0.6650      5617
   0.6700      5432
   0.6750      5137
   0.6800      4866
   0.6850      4478
   0.6900      4035
   0.6950      3787
   0.7000      3353
   0.7050      2917
   0.7100      2639
   0.7150      2188
   0.7200      1916
   0.7250      1445
   0.7300      1124
   0.7350       797
   0.7400       434
   0.7450       167
   0.7500        58
   0.7550        25
   0.7600        15
   0.7650        19
   0.7700        23
   0.7750        13
   0.7800        10
   0.7850        20
   0.7900        17
   0.7950        12
   0.8000        17
   0.8050        18
   0.8100        22
   0.8150        17
   0.8200        13
   0.8250         8
   0.8300        12
   0.8350         5
   0.8400        12
   0.8450        17
   0.8500        12
   0.8550        17
   0.8600        10
   0.8650        14
   0.8700        12
   0.8750         4
   0.8800        11
   0.8850         8
   0.8900         8
   0.8950         6
   0.9000        11
   0.9050        13
   0.9100        11
   0.9150        12
   0.9200         9
   0.9250         4
   0.9300         8
   0.9350        16
   0.9400         9
   0.9450        10
   0.9500         5
   0.9550         8
   0.9600        13
   0.9650         5
   0.9700        11
   0.9750         7
   0.9800        11
   0.9850         7
   0.9900         9
   0.9950        12
   1.0000        13
   1.0050        14
   1.0100        11
   1.0150        14
   1.0200         6
   1.0250        13
   1.0300         7
   1.0350         9
   1.0400         8
   1.0450        12
   1.0500         8
   1.0550         7
   1.0600         9
   1.0650         6
   1.0700         8
   1.0750        10
   1.0800         8
   1.0850         4
   1.0900         7
   1.0950        10
   1.1000         7
   1.1050        10
   1.1100         5
   1.1150         7
   1.1200         9
   1.1250         6
   1.1300         6
   1.1350         2
   1.1400         9
   1.1450        12
   1.1500         7
   1.1550         6
   1.1600         6
   1.1650         9
   1.1700        14
   1.1750         6
   1.1800         3
   1.1850         6
   1.1900         6
   1.1950         4
   1.2000        10
   1.2050         8
   1.2100         7
   1.2150         5
   1.2200         9
   1.2250         6
   1.2300         2
   1.2350         8
   1.2400         5
   1.2450         6
   1.2500        10
   1.2550         6
   1.2600         4
   1.2650         5
   1.2700         4
   1.2750         6
   1.2800         2
   1.2850         4
   1.2900         3
   1.2950         5
   1.3000        10
   1.3050         5
   1.3100         5
   1.3150         5
   1.3200         8
   1.3250        10
   1.3300         4
   1.3350         3
   1.3400         5
   1.3450         9
   1.3500         3
   1.3550         3
   1.3600         6
   1.3650         4
   1.3700         2
   1.3750         6
   1.3800         2
   1.3850         9
   1.3900         7
   1.3950         5
   1.4000         4
   1.4050         3
   1.4100         3
   1.4150         4
   1.4200         4
   1.4250         0
   1.4300         2
   1.4350         7
   1.4400         0
   1.4450         2
   1.4500         2
   1.4550         3
   1.4600         3
   1.4650         2
   1.4700         3
   1.4750         2
   1.4800         1
   1.4850         1
   1.4900         0
   1.4950         0
   1.5000         1